File: Battery_Data/voltage_profile_detailed.csv
time/h,Ewe/V
0.000277056,3.2013
0.000559333,3.22295
0.000602111,3.25301
0.000666278,3.2832
0.000745056,3.31335
0.0008345,3.34346
0.000933667,3.37351
0.00104,3.40357
0.00116,3.43369
0.00128,3.46378
0.00141,3.49387
0.00156,3.52404
0.00171,3.55413
0.00189,3.58427
0.00209,3.61434
0.00232,3.64446
0.00264,3.67456
0.00527,3.68456
0.02413,3.66179
0.04913,3.65994
0.07413,3.66247
0.09913,3.66648
0.12413,3.67134
0.14913,3.67643
0.17413,3.68184
0.19913,3.6872
0.22413,3.69246
0.24913,3.69806
0.27413,3.70327
0.29913,3.70835
0.32413,3.71318
0.34913,3.71801
0.37413,3.72259
0.39913,3.72701
0.42413,3.73107
0.44913,3.73503
0.47413,3.73886
0.49913,3.74254
0.52413,3.74595
0.54913,3.7491
0.57413,3.75245
0.59913,3.75563
0.62413,3.75865
0.64913,3.76149
0.67413,3.76435
0.69913,3.76703
0.72413,3.76956
0.74913,3.77213
0.77413,3.77484
0.79913,3.77734
0.82413,3.77972
0.84913,3.78199
0.87413,3.78427
0.89913,3.78656
0.92413,3.7889
0.94913,3.79117
0.97413,3.79328
0.99913,3.79546
1.02413,3.7976
1.04913,3.79954
1.07413,3.80184
1.09913,3.80376
1.12413,3.80584
1.14913,3.80774
1.17413,3.80986
1.19913,3.81182
1.22413,3.81376
1.24913,3.81571
1.27413,3.81754
1.29913,3.81959
1.32413,3.82153
1.34913,3.82351
1.37413,3.82546
1.39913,3.82727
1.42413,3.82924
1.44913,3.8311
1.47413,3.83307
1.49913,3.83508
1.52413,3.83692
1.54913,3.83893
1.57413,3.84095
1.59913,3.84301
1.62413,3.84498
1.64913,3.84709
1.67413,3.84921
1.69913,3.85134
1.72413,3.85344
1.74913,3.85569
1.77413,3.8579
1.79913,3.86017
1.82413,3.86259
1.84913,3.86469
1.87413,3.86727
1.89913,3.86961
1.92413,3.87213
1.94913,3.87471
1.97413,3.87731
1.99913,3.87988
2.02413,3.88261
2.04913,3.8853
2.07413,3.88787
2.09913,3.89083
2.12413,3.89361
2.14913,3.89649
2.17413,3.89933
2.19913,3.90228
2.22413,3.9052
2.24913,3.90823
2.27413,3.91113
2.29913,3.91428
2.32413,3.91735
2.34913,3.92047
2.37413,3.92357
2.39913,3.92682
2.42413,3.93
2.44913,3.93313
2.47413,3.9364
2.49913,3.93959
2.52413,3.94285
2.54913,3.94607
2.57413,3.94934
2.59913,3.95272
2.62413,3.95589
2.64913,3.95929
2.67413,3.96263
2.69913,3.96595
2.72413,3.96931
2.74913,3.97263
2.77413,3.97613
2.79913,3.97957
2.82413,3.98271
2.84913,3.98607
2.87413,3.98951
2.89913,3.99289
2.92413,3.99625
2.94913,3.99971
2.97413,4.00303
2.99913,4.00648
3.02413,4.0098
3.04913,4.01334
3.07413,4.01677
3.09913,4.02008
3.12413,4.0237
3.14913,4.02712
3.17413,4.03054
3.19913,4.03399
3.22413,4.03746
3.24913,4.04094
3.27413,4.04442
3.29913,4.04792
3.32413,4.05133
3.34913,4.05482
3.37413,4.05846
3.39913,4.06192
3.42413,4.06558
3.44913,4.06904
3.47413,4.07264
3.49913,4.07618
3.52413,4.0798
3.54913,4.08344
3.57413,4.08704
3.59913,4.09069
3.62413,4.09431
3.64913,4.09815
3.67413,4.1017
3.69913,4.10542
3.72413,4.10912
3.74913,4.11294
3.77413,4.11675
3.79913,4.12056
3.82413,4.12432
3.84913,4.12816
3.87413,4.13197
3.89913,4.13587
3.92413,4.13992
3.94913,4.14358
3.97413,4.14768
3.99913,4.15171
4.02413,4.15569
4.04913,4.15963
4.07413,4.1637
4.09913,4.16772
4.12413,4.17201
4.14913,4.17606
4.17413,4.18008
4.19913,4.18423
4.22413,4.1885
4.24913,4.19264
4.27413,4.19688
4.29913,4.20129
4.32413,4.20553
4.34913,4.20978
4.37413,4.21399
4.39913,4.21838
4.42413,4.22281
4.44913,4.22714
4.47413,4.23156
4.49913,4.23585
4.52413,4.24038
4.54913,4.24477
4.57413,4.24919
4.59913,4.25379
4.62413,4.25831
4.64913,4.26274
4.67413,4.2674
4.69913,4.27176
4.72413,4.27656
4.74913,4.28108
4.77413,4.28576
4.79913,4.29026
4.82413,4.29502
4.84913,4.29962
4.87413,4.3043
4.89913,4.30889
4.92413,4.31366
4.94913,4.31852
4.97413,4.32329
4.99913,4.32801
5.02413,4.33283
5.04913,4.33749
5.07413,4.34224
5.09913,4.34692
5.12413,4.35162
5.14913,4.35632
5.17413,4.3609
5.19913,4.36531
5.22413,4.3697
5.24913,4.37412
5.27413,4.37831
5.29913,4.38262
5.32413,4.38663
5.34913,4.39028
5.37413,4.3941
5.39913,4.39786
5.42413,4.40125
5.44913,4.40472
5.47413,4.40817
5.49913,4.41148
5.52413,4.41459
5.54913,4.41766
5.57413,4.42058
5.59913,4.42344
5.62413,4.42643
5.64913,4.42933
5.67413,4.43194
5.69913,4.43468
5.72413,4.43738
5.74913,4.43984
5.77413,4.44237
5.79913,4.44482
5.82413,4.44728
5.84913,4.44953
5.87413,4.45186
5.89913,4.45415
5.92413,4.45625
5.94913,4.45859
5.97413,4.46076
5.99913,4.46275
6.02413,4.46481
6.04913,4.46666
6.07413,4.46869
6.09913,4.47067
6.12413,4.47255
6.14913,4.47447
6.17413,4.47624
6.19913,4.47797
6.22413,4.47978
6.24913,4.48153
6.27413,4.48318
6.29913,4.48462
6.32413,4.48635
6.34913,4.48816
6.37413,4.48967
6.39913,4.49127
6.42413,4.49272
6.44913,4.49428
6.47413,4.4956
6.49913,4.49715
6.52413,4.49827
6.54913,4.49968
6.57413,4.50092
6.59913,4.50207
6.62413,4.50332
6.64913,4.50442
6.67413,4.50579
6.69913,4.50699
6.72413,4.50813
6.74913,4.5094
6.77413,4.51043
6.79913,4.51135
6.82413,4.51233
6.84913,4.51352
6.87413,4.5144
6.89913,4.51534
6.92413,4.51652
6.94913,4.51733
6.97413,4.51841
6.99913,4.51962
7.02413,4.52031
7.04913,4.52108
7.07413,4.52199
7.09913,4.52272
7.12413,4.52357
7.14913,4.52428
7.17413,4.52494
7.19913,4.52581
7.22413,4.52667
7.24913,4.52762
7.27413,4.52802
7.29913,4.52879
7.32413,4.52936
7.34913,4.53015
7.37413,4.53096
7.39913,4.5316
7.42413,4.53236
7.44913,4.53295
7.47413,4.53383
7.49913,4.53444
7.52413,4.53511
7.54913,4.53571
7.57413,4.53613
7.59913,4.53686
7.62413,4.53734
7.64913,4.5381
7.67413,4.53874
7.69913,4.5393
7.72413,4.54028
7.74913,4.54091
7.77413,4.54138
7.79913,4.54187
7.82413,4.54248
7.84913,4.54307
7.87413,4.54345
7.89913,4.54394
7.92413,4.54442
7.94913,4.54495
7.97413,4.54559
7.99913,4.54626
8.02413,4.54665
8.04913,4.54732
8.07413,4.54807
8.09913,4.54846
8.12413,4.54898
8.14913,4.54941
8.17413,4.55013
8.19913,4.5505
8.22413,4.55114
8.24913,4.55167
8.27413,4.55209
8.29913,4.55257
8.32413,4.55323
8.34913,4.55393
8.37413,4.55442
8.39913,4.55494
8.42413,4.55545
8.44913,4.55604
8.47413,4.55657
8.49913,4.5572
8.52413,4.55749
8.54913,4.5579
8.57413,4.5586
8.59913,4.55925
8.62413,4.55987
8.64913,4.56037
8.67413,4.56078
8.69913,4.56125
8.72413,4.56202
8.74913,4.56273
8.77413,4.56294
8.79913,4.56348
8.82413,4.56394
8.84913,4.56451
8.87413,4.56514
8.89913,4.5657
8.92413,4.56628
8.94913,4.56688
8.97413,4.56752
8.99913,4.56833
9.02413,4.56867
9.04913,4.56937
9.07413,4.56977
9.09913,4.57039
9.12413,4.57101
9.14913,4.57158
9.17413,4.57226
9.19913,4.57306
9.22413,4.57395
9.24913,4.57479
9.27413,4.57525
9.29913,4.57584
9.32413,4.57636
9.34913,4.57706
9.37413,4.57765
9.39913,4.57826
9.42413,4.57892
9.44913,4.57985
9.47413,4.58068
9.49913,4.58172
9.52413,4.58232
9.54913,4.58302
9.57413,4.58361
9.59913,4.58444
9.62413,4.58527
9.64913,4.58601
9.67413,4.58667
9.69913,4.58764
9.72413,4.58875
9.74913,4.58989
9.77413,4.59058
9.79913,4.59145
9.82413,4.59238
9.84913,4.59329
9.87413,4.59426
9.89913,4.59502
9.92413,4.59601
9.94913,4.59698
9.97413,4.59816
9.99913,4.59944
10.02413,4.60042
10.04913,4.60161
10.07413,4.6025
10.09913,4.60369
10.12413,4.60482
10.14913,4.60605
10.17413,4.6072
10.19913,4.60846
10.22413,4.60984
10.24913,4.61087
10.27413,4.61239
10.29913,4.61389
10.32413,4.61551
10.34913,4.61701
10.37413,4.61865
10.39913,4.62014
10.42413,4.62186
10.44913,4.62347
10.47413,4.62519
10.49913,4.6269
10.52413,4.62872
10.54913,4.63072
10.57413,4.63286
10.59913,4.63488
10.62413,4.63707
10.64913,4.6393
10.67413,4.64148
10.69913,4.64383
10.72413,4.64616
10.74913,4.64865
10.77413,4.65136
10.79913,4.65416
10.82413,4.65698
10.84913,4.65987
10.87413,4.66287
10.89913,4.66583
10.92413,4.66897
10.94913,4.67219
10.97413,4.67553
10.99913,4.67907
11.02413,4.68285
11.04913,4.68679
11.07413,4.69084
11.09913,4.69512
11.12413,4.69933
11.12716,4.69272
11.12738,4.66258
11.12769,4.63253
11.12816,4.60244
11.12896,4.57237
11.13104,4.54231
11.14468,4.51218
11.16968,4.49573
11.19468,4.48397
11.21968,4.47385
11.24468,4.46473
11.26968,4.45636
11.29468,4.44846
11.31968,4.44068
11.34468,4.43347
11.36968,4.42642
11.39468,4.41956
11.41968,4.41301
11.44468,4.40666
11.46968,4.4005
11.49468,4.39451
11.51968,4.38869
11.54468,4.38286
11.56968,4.37707
11.59468,4.37152
11.61968,4.36604
11.64468,4.36059
11.66968,4.35512
11.69468,4.34978
11.71968,4.34433
11.74468,4.33917
11.76968,4.33392
11.79468,4.32875
11.81968,4.32352
11.84468,4.31828
11.86968,4.31304
11.89468,4.30789
11.91968,4.30272
11.94468,4.2978
11.96968,4.2925
11.99468,4.28731
12.01968,4.28201
12.04468,4.27684
12.06968,4.27176
12.09468,4.26663
12.11968,4.26156
12.14468,4.25652
12.16968,4.25144
12.19468,4.24639
12.21968,4.24147
12.24468,4.23629
12.26968,4.23109
12.29468,4.22618
12.31968,4.22105
12.34468,4.21608
12.36968,4.21094
12.39468,4.20611
12.41968,4.20094
12.44468,4.19601
12.46968,4.19085
12.49468,4.18598
12.51968,4.18097
12.54468,4.17604
12.56968,4.17106
12.59468,4.16614
12.61968,4.1612
12.64468,4.1564
12.66968,4.15154
12.69468,4.14673
12.71968,4.14191
12.74468,4.13706
12.76968,4.13235
12.79468,4.12771
12.81968,4.12284
12.84468,4.11816
12.86968,4.11341
12.89468,4.10882
12.91968,4.10427
12.94468,4.09965
12.96968,4.09508
12.99468,4.09066
13.01968,4.08612
13.04468,4.08179
13.06968,4.07745
13.09468,4.07308
13.11968,4.06863
13.14468,4.06457
13.16968,4.06022
13.19468,4.05588
13.21968,4.0517
13.24468,4.0475
13.26968,4.04324
13.29468,4.03922
13.31968,4.03515
13.34468,4.03106
13.36968,4.02721
13.39468,4.02316
13.41968,4.01923
13.44468,4.01543
13.46968,4.01141
13.49468,4.00767
13.51968,4.00392
13.54468,4.00017
13.56968,3.99632
13.59468,3.99271
13.61968,3.98898
13.64468,3.98537
13.66968,3.98179
13.69468,3.97815
13.71968,3.97483
13.74468,3.97128
13.76968,3.96773
13.79468,3.96431
13.81968,3.96089
13.84468,3.95763
13.86968,3.95432
13.89468,3.95094
13.91968,3.94764
13.94468,3.94444
13.96968,3.94121
13.99468,3.93805
14.01968,3.93486
14.04468,3.93181
14.06968,3.92863
14.09468,3.92569
14.11968,3.92247
14.14468,3.9196
14.16968,3.91654
14.19468,3.91368
14.21968,3.91067
14.24468,3.90781
14.26968,3.90482
14.29468,3.90202
14.31968,3.89911
14.34468,3.89632
14.36968,3.89347
14.39468,3.89071
14.41968,3.88806
14.44468,3.8852
14.46968,3.8825
14.49468,3.87978
14.51968,3.87706
14.54468,3.8742
14.56968,3.87162
14.59468,3.86901
14.61968,3.86641
14.64468,3.86371
14.66968,3.86111
14.69468,3.85841
14.71968,3.85597
14.74468,3.85341
14.76968,3.85073
14.79468,3.84824
14.81968,3.84582
14.84468,3.84331
14.86968,3.84057
14.89468,3.83809
14.91968,3.83563
14.94468,3.83305
14.96968,3.8305
14.99468,3.82816
15.01968,3.82565
15.04468,3.8233
15.06968,3.82083
15.09468,3.8184
15.11968,3.81602
15.14468,3.81354
15.16968,3.81111
15.19468,3.80873
15.21968,3.80644
15.24468,3.80393
15.26968,3.80163
15.29468,3.79933
15.31968,3.7971
15.34468,3.79475
15.36968,3.79234
15.39468,3.79021
15.41968,3.78803
15.44468,3.78577
15.46968,3.78361
15.49468,3.78136
15.51968,3.77926
15.54468,3.77701
15.56968,3.77493
15.59468,3.77265
15.61968,3.77063
15.64468,3.76843
15.66968,3.7664
15.69468,3.76435
15.71968,3.76218
15.74468,3.76022
15.76968,3.75813
15.79468,3.75633
15.81968,3.75416
15.84468,3.75237
15.86968,3.75036
15.89468,3.74852
15.91968,3.74645
15.94468,3.74459
15.96968,3.74248
15.99468,3.74066
16.01968,3.73881
16.04468,3.73688
16.06968,3.73497
16.09468,3.73315
16.11968,3.73137
16.14468,3.72932
16.16968,3.72747
16.19468,3.72562
16.21968,3.72382
16.24468,3.7218
16.26968,3.71998
16.29468,3.71802
16.31968,3.71603
16.34468,3.71412
16.36968,3.71216
16.39468,3.71023
16.41968,3.70824
16.44468,3.70627
16.46968,3.70414
16.49468,3.70211
16.51968,3.70012
16.54468,3.69807
16.56968,3.69599
16.59468,3.69373
16.61968,3.69152
16.64468,3.68936
16.66968,3.68726
16.69468,3.68481
16.71968,3.6825
16.74468,3.68027
16.76968,3.67789
16.79468,3.6754
16.81968,3.673
16.84468,3.67051
16.86968,3.66783
16.89468,3.66541
16.91968,3.66288
16.94468,3.66039
16.96968,3.65765
16.99468,3.65494
17.01968,3.65216
17.04468,3.64955
17.06968,3.64657
17.09468,3.64369
17.11968,3.64093
17.14468,3.63795
17.16968,3.63478
17.19468,3.63184
17.21968,3.6288
17.24468,3.62574
17.26968,3.62254
17.29468,3.61928
17.31968,3.61602
17.34468,3.61276
17.36968,3.60946
17.39468,3.60606
17.41968,3.60267
17.44468,3.59918
17.46968,3.5957
17.49468,3.59213
17.51968,3.58853
17.54468,3.58487
17.56968,3.58128
17.59468,3.57754
17.61968,3.57379
17.64468,3.57012
17.66968,3.56628
17.69468,3.56252
17.71968,3.55861
17.74468,3.5547
17.76968,3.55076
17.79468,3.54681
17.81968,3.54294
17.84468,3.53878
17.86968,3.53474
17.89468,3.53075
17.91968,3.52667
17.94468,3.52251
17.96968,3.51838
17.99468,3.5145
18.01968,3.51013
18.04468,3.506
18.06968,3.50188
18.09468,3.49768
18.11968,3.49339
18.14468,3.4892
18.16968,3.48499
18.19468,3.48071
18.21968,3.47632
18.24468,3.47217
18.26968,3.46779
18.29468,3.46353
18.31968,3.45913
18.34468,3.45482
18.36968,3.45045
18.39468,3.44595
18.41968,3.4415
18.44468,3.437
18.46968,3.43241
18.49468,3.42782
18.51968,3.42312
18.54468,3.4186
18.56968,3.41401
18.59468,3.40911
18.61968,3.40443
18.64468,3.39971
18.66968,3.39463
18.69468,3.38983
18.71968,3.3848
18.74468,3.37973
18.76968,3.37476
18.79468,3.36973
18.81968,3.3646
18.84468,3.35951
18.86968,3.35431
18.89468,3.34895
18.91968,3.34357
18.94468,3.33818
18.96968,3.33257
18.99468,3.32688
19.01968,3.32143
19.04468,3.31577
19.06969,3.30993
19.09469,3.30403
19.11969,3.29803
19.14469,3.29198
19.16969,3.28592
19.19469,3.27976
19.21969,3.27368
19.24469,3.2672
19.26969,3.26079
19.29469,3.25454
19.31969,3.2481
19.34469,3.2416
19.36969,3.23524
19.39469,3.22865
19.41969,3.22185
19.44469,3.21481
19.46969,3.20778
19.49469,3.20081
19.51969,3.19422
19.54469,3.18771
19.56969,3.18112
19.59469,3.17422
19.61969,3.16706
19.64469,3.15997
19.66969,3.15307
19.69469,3.14624
19.71969,3.13934
19.74469,3.13226
19.76969,3.12558
19.79469,3.11856
19.81969,3.11148
19.84469,3.1044
19.86969,3.09726
19.89469,3.09007
19.91969,3.08278
19.94469,3.07515
19.96969,3.06726
19.99469,3.05903
20.01969,3.05132
20.04469,3.0431
20.06969,3.03472
20.09469,3.02581
20.11969,3.01653
20.14469,3.00665
20.16104,3.00004
20.16106,3.02531
20.16112,3.0555
20.16121,3.08563
20.16135,3.11579
20.16157,3.14589
20.16198,3.17595
20.1627,3.20598
20.16385,3.23603
20.16557,3.2661
20.16802,3.29614
20.1715,3.32618
20.17655,3.35621
20.18415,3.38622
20.1965,3.41629
20.21798,3.44541
20.24298,3.46467
20.26798,3.47693
20.29298,3.48582
20.31798,3.49253
20.34298,3.49811
20.36798,3.50305
20.39298,3.50745
20.41798,3.512
20.44298,3.51615
20.46798,3.52035
20.49298,3.52435
20.51798,3.5284
20.54298,3.53221
20.56798,3.53644
20.59298,3.54065
20.61798,3.54485
20.64298,3.54936
20.66798,3.55371
20.69298,3.55831
20.71798,3.5629
20.74298,3.56764
20.76798,3.57237
20.79298,3.57702
20.81798,3.58202
20.84298,3.5866
20.86798,3.59156
20.89298,3.59654
20.91798,3.60151
20.94298,3.60621
20.96798,3.61121
20.99298,3.61619
21.01798,3.62101
21.04298,3.62565
21.06798,3.63061
21.09298,3.63515
21.11798,3.64002
21.14298,3.64461
21.16798,3.64914
21.19298,3.65355
21.21798,3.65784
21.24298,3.66209
21.26798,3.66627
21.29298,3.67042
21.31798,3.67429
21.34298,3.67819
21.36798,3.68199
21.39298,3.68566
21.41798,3.68921
21.44298,3.69271
21.46798,3.69597
21.49298,3.69923
21.51798,3.70236
21.54298,3.70553
21.56798,3.70831
21.59298,3.71133
21.61798,3.7141
21.64298,3.71686
21.66798,3.71959
21.69298,3.72219
21.71799,3.72475
21.74299,3.72721
21.76799,3.72962
21.79299,3.73193
21.81799,3.73425
21.84299,3.7366
21.86799,3.73882
21.89299,3.74106
21.91799,3.74312
21.94299,3.74526
21.96799,3.74744
21.99299,3.74953
22.01799,3.75155
22.04299,3.7535
22.06799,3.75539
22.09299,3.75734
22.11799,3.75939
22.14299,3.76123
22.16799,3.76303
22.19299,3.76503
22.21799,3.76693
22.24299,3.76883
22.26799,3.77055
22.29299,3.77249
22.31799,3.7744
22.34299,3.77622
22.36799,3.77817
22.39299,3.77994
22.41799,3.78182
22.44299,3.78375
22.46799,3.78556
22.49299,3.78757
22.51799,3.78947
22.54299,3.79137
22.56799,3.79321
22.59299,3.79515
22.61799,3.79695
22.64299,3.79903
22.66799,3.80096
22.69299,3.80292
22.71799,3.80499
22.74299,3.80692
22.76799,3.80901
22.79299,3.81102
22.81799,3.81304
22.84299,3.81515
22.86799,3.81723
22.89299,3.81942
22.91799,3.82155
22.94299,3.8235
22.96799,3.8258
22.99299,3.8279
23.01799,3.83006
23.04299,3.83228
23.06799,3.83444
23.09299,3.83657
23.11799,3.83899
23.14299,3.84119
23.16799,3.84346
23.19299,3.84572
23.21799,3.84803
23.24299,3.85037
23.26799,3.85268
23.293,3.85494
23.318,3.85721
23.343,3.85954
23.368,3.86182
23.393,3.86429
23.418,3.86657
23.443,3.8689
23.468,3.87134
23.493,3.8737
23.518,3.87609
23.543,3.87842
23.568,3.88092
23.593,3.88327
23.618,3.88563
23.643,3.88797
23.668,3.89037
23.693,3.89281
23.718,3.89516
23.743,3.89759
23.768,3.89999
23.793,3.90231
23.818,3.90483
23.843,3.90718
23.868,3.90956
23.893,3.91196
23.918,3.9144
23.943,3.91699
23.968,3.91937
23.993,3.92173
24.018,3.92424
24.043,3.9265
24.068,3.92902
24.093,3.93157
24.118,3.93398
24.143,3.93636
24.168,3.93898
24.193,3.94141
24.218,3.94389
24.243,3.94648
24.268,3.94887
24.293,3.95142
24.318,3.95398
24.343,3.95661
24.368,3.95909
24.393,3.9616
24.418,3.96433
24.443,3.9669
24.468,3.96947
24.493,3.97208
24.518,3.97467
24.543,3.97728
24.568,3.98003
24.593,3.98276
24.618,3.9853
24.643,3.98807
24.668,3.99068
24.693,3.99349
24.718,3.99617
24.743,3.99907
24.768,4.00166
24.793,4.0044
24.818,4.00728
24.84301,4.0101
24.86801,4.01295
24.89301,4.0158
24.91801,4.01874
24.94301,4.02153
24.96801,4.02432
24.99301,4.02733
25.01801,4.03031
25.04301,4.03325
25.06801,4.03604
25.09301,4.03905
25.11801,4.04202
25.14301,4.04524
25.16801,4.04807
25.19301,4.05125
25.21801,4.0544
25.24301,4.05738
25.26801,4.0604
25.29301,4.06351
25.31801,4.06664
25.34301,4.06972
25.36801,4.07304
25.39301,4.07619
25.41801,4.07942
25.44301,4.08271
25.46801,4.08589
25.49301,4.08927
25.51801,4.09252
25.54301,4.0959
25.56801,4.09919
25.59301,4.10256
25.61801,4.10587
25.64301,4.10921
25.66801,4.11274
25.69301,4.1162
25.71801,4.11963
25.74301,4.12317
25.76801,4.12658
25.79301,4.13022
25.81801,4.13357
25.84301,4.1372
25.86801,4.14088
25.89301,4.14444
25.91801,4.14808
25.94301,4.1517
25.96801,4.15549
25.99301,4.15907
26.01801,4.16287
26.04301,4.16632
26.06801,4.1701
26.09301,4.17383
26.11801,4.17769
26.14301,4.18133
26.16801,4.18512
26.19301,4.18886
26.21801,4.19266
26.24301,4.19653
26.26801,4.20036
26.29301,4.2042
26.31801,4.20821
26.34301,4.21195
26.36801,4.21584
26.39302,4.21963
26.41802,4.22357
26.44302,4.22742
26.46802,4.23133
26.49302,4.23528
26.51802,4.23897
26.54302,4.24291
26.56802,4.2466
26.59302,4.25062
26.61802,4.25456
26.64302,4.25843
26.66802,4.26236
26.69302,4.26616
26.71802,4.27013
26.74302,4.274
26.76802,4.27798
26.79302,4.28178
26.81802,4.28567
26.84302,4.28956
26.86802,4.29343
26.89302,4.29728
26.91802,4.30124
26.94302,4.30501
26.96802,4.30899
26.99302,4.3128
27.01802,4.31669
27.04302,4.32055
27.06802,4.32447
27.09302,4.32827
27.11802,4.33216
27.14302,4.33603
27.16802,4.33999
27.19302,4.34378
27.21802,4.34785
27.24302,4.35167
27.26802,4.3555
27.29302,4.35952
27.31802,4.3634
27.34302,4.3672
27.36802,4.37111
27.39302,4.3748
27.41802,4.37881
27.44302,4.38263
27.46802,4.38636
27.49302,4.39038
27.51802,4.39429
27.54302,4.39817
27.56802,4.40206
27.59302,4.40583
27.61802,4.40967
27.64302,4.41374
27.66802,4.41759
27.69302,4.42151
27.71802,4.42547
27.74302,4.42952
27.76802,4.43351
27.79302,4.43755
27.81802,4.44139
27.84302,4.4455
27.86802,4.44957
27.89302,4.45368
27.91802,4.45763
27.94303,4.46176
27.96803,4.46579
27.99303,4.47006
28.01803,4.47408
28.04303,4.47856
28.06803,4.48271
28.09303,4.48683
28.11803,4.49101
28.14303,4.49522
28.16335,4.49871